File: 30min.asc
*TYPE		=  Raw
*CLASS		=  ASCII CLASS
*SAMPLE		=  30min
*COMMENT	=
*FNAME		=  30min_Theta_2-Theta.asc
*DATE		=  19-Dec-18 17:10

*GROUP_COUNT	=  1
*GONIO		=  MiniFlex 300/600 +, 150
*ATTACHMENT	=  Standard Sample Holder
*ASC		=  0, 0, 0.000000, 0.000000
*FILTER		=  None
*C_MONOCHRO	=  Bent, 0.000000
*SLIT_NAME	=  0, IHS
*SLIT_NAME	=  1, DS +
*SLIT_NAME	=  2, SS
*SLIT_NAME	=  3, RS
*COUNTER	=  SC-70, 0
*POS_FORMAT	=  0
*SCAN_AXIS	=  2theta/theta
*MEAS_MODE	=  Continuous Scanning
*TARGET		=  29
*XRAY_CHAR	=  K-ALPHA
*WAVE_LENGTH1	=  1.54059
*WAVE_LENGTH2	=  1.54441
*THICKNESS	=  0, 0.000000
*MU		=  0, 0.000000
*SCAN_MODE	=  2theta/theta
*SPEED_DIM	=  sec./step
*XUNIT		=  deg.
*YUNIT		=  counts
*SCALE_MODE	=  1
*REP_COUNT	=  0
*SE_COUNT	=  0
*STD_MATERIAL	=  Unknown, Unknown, 0.000000, 0.000000, 0.000000, 0.000000, 0.000000, 0.000000
*LATT_CONS	=  0, Unknown, Unknown, 0.000000, 0.000000, 0.000000, 0.000000, 0.000000, 0.000000
*SEC_COUNT	=  1
*TSPEC_SIZE	=  0
*EXTRA_SIZE	=  0
*MEMO		=

*BEGIN
*GROUP		=  0
*START		=  30
*STOP		=  90
*STEP		=  0.01
*OFFSET		=  0.000000
*SPEED		=  0.3
*SLIT_SPEC	=  0, 10.0mm, 10, 0.000000
*SLIT_SPEC	=  1, 1.250deg, 1.25, 0.000000
*SLIT_SPEC	=  2, 1.250deg, 1.25, 0.000000
*SLIT_SPEC	=  3, 0.3mm, 0.3, 0.000000
*KV		=  40
*MA		=  15
*LOW		=  0.000000
*HIGH		=  0.000000
*CTEMPER	=  0, 0.000000
*CTEMPER	=  1, 0.000000
*CTEMPER	=  2, 0.000000
*PAREX		=  0, 0.000000
*PAREX		=  1, 0.000000
*PAREX		=  2, 0.000000
*PAREX		=  3, 0.000000
*PAREX		=  4, 0.000000
*PAREX		=  5, 0.000000
*PAREX		=  6, 0.000000
*PAREX		=  7, 0.000000
*PAREX		=  8, 0.000000
*PAREX		=  9, 0.000000
*PAREX		=  10, 0.000000
*PAREX		=  11, 0.000000
*PAREX		=  12, 0.000000
*PAREX		=  13, 0.000000
*PAREX		=  14, 0.000000
*PAREX		=  15, 0.000000
*FULL_SCALE	=  828
*INDEX		=  0, 0, 0
*COUNT		=  6001
21, 16, 15, 16
10, 20, 13, 9
12, 15, 12, 20
9, 15, 11, 7
18, 18, 9, 18
13, 10, 6, 15
10, 16, 13, 17
14, 12, 19, 13
9, 10, 10, 15
9, 11, 19, 16
8, 16, 13, 11
13, 11, 14, 8
14, 13, 13, 19
12, 15, 12, 16
10, 13, 12, 12
13, 10, 12, 16
18, 13, 14, 19
15, 14, 14, 8
10, 13, 11, 12
17, 12, 16, 14
11, 17, 20, 14
20, 15, 13, 22
18, 15, 14, 12
15, 14, 15, 13
15, 15, 16, 15
9, 11, 14, 14
18, 15, 15, 15
16, 15, 14, 19
16, 11, 11, 14
15, 15, 19, 16
11, 19, 20, 14
18, 17, 15, 23
13, 16, 21, 16
17, 19, 14, 12
10, 14, 16, 17
16, 14, 12, 18
16, 18, 20, 15
20, 14, 11, 12
13, 10, 12, 16
11, 11, 13, 16
16, 18, 23, 18
20, 19, 15, 12
17, 13, 15, 13
17, 16, 14, 12
12, 21, 25, 19
14, 20, 19, 18
20, 23, 22, 17
19, 21, 19, 16
21, 18, 16, 16
20, 19, 20, 21
13, 13, 14, 12
20, 20, 13, 16
13, 20, 23, 20
18, 17, 13, 16
23, 17, 20, 23
20, 21, 20, 21
12, 11, 15, 18
20, 19, 17, 20
21, 25, 23, 21
15, 17, 20, 21
17, 14, 24, 21
20, 14, 16, 17
25, 17, 16, 21
22, 16, 17, 17
22, 22, 19, 22
25, 22, 21, 15
20, 17, 14, 19
17, 26, 28, 17
18, 25, 22, 22
23, 17, 21, 25
22, 25, 22, 22
25, 24, 19, 22
24, 24, 23, 19
24, 20, 24, 26
24, 22, 19, 23
29, 32, 25, 27
23, 24, 25, 18
28, 39, 29, 27
30, 27, 22, 18
29, 27, 25, 27
27, 31, 35, 25
30, 22, 23, 21
35, 26, 29, 34
30, 26, 30, 26
36, 24, 36, 33
34, 30, 38, 36
31, 33, 35, 32
36, 31, 34, 36
36, 28, 26, 33
33, 42, 37, 37
35, 38, 34, 33
43, 29, 34, 48
34, 39, 36, 35
31, 33, 37, 44
41, 41, 48, 45
35, 44, 50, 44
32, 43, 38, 38
41, 45, 55, 51
56, 53, 43, 50
41, 40, 53, 49
48, 58, 60, 46
53, 50, 47, 56
48, 68, 45, 44
69, 62, 54, 60
63, 51, 60, 55
57, 64, 75, 69
64, 67, 77, 63
64, 80, 74, 64
68, 92, 85, 73
69, 71, 66, 91
97, 82, 64, 67
89, 75, 87, 79
78, 82, 83, 91
75, 107, 95, 86
86, 86, 107, 100
111, 103, 112, 112
116, 105, 123, 112
99, 123, 133, 113
111, 106, 117, 108
105, 118, 92, 122
127, 122, 144, 126
120, 132, 125, 114
128, 123, 136, 142
125, 152, 132, 131
117, 142, 150, 137
147, 153, 159, 140
153, 163, 161, 170
150, 157, 163, 160
168, 179, 169, 160
190, 167, 190, 185
176, 188, 182, 157
188, 189, 186, 176
185, 190, 175, 182
196, 171, 179, 176
177, 180, 179, 192
188, 187, 190, 182
195, 203, 183, 194
197, 187, 198, 176
185, 192, 186, 186
181, 184, 188, 182
171, 175, 206, 179
171, 158, 182, 180
163, 168, 189, 190
185, 165, 183, 173
178, 172, 161, 186
150, 161, 176, 171
155, 166, 164, 159
148, 144, 143, 148
170, 181, 173, 167
161, 147, 147, 150
150, 136, 151, 130
138, 133, 148, 139
147, 149, 149, 146
148, 139, 138, 135
140, 123, 108, 127
125, 117, 113, 117
124, 116, 108, 125
106, 115, 125, 109
133, 135, 106, 95
111, 108, 109, 120
91, 100, 101, 110
98, 100, 115, 105
91, 99, 104, 93
101, 101, 105, 99
89, 101, 105, 97
95, 87, 94, 89
93, 98, 104, 87
91, 87, 87, 78
85, 88, 87, 96
84, 82, 83, 80
79, 75, 73, 72
76, 73, 78, 73
73, 80, 76, 73
83, 68, 70, 80
77, 83, 80, 86
75, 78, 85, 78
64, 72, 82, 80
73, 86, 73, 74
68, 74, 71, 66
78, 75, 69, 74
70, 66, 64, 62
75, 82, 72, 75
60, 62, 66, 72
73, 62, 70, 75
67, 62, 66, 74
77, 66, 68, 75
73, 75, 67, 57
76, 71, 67, 70
73, 60, 63, 67
69, 73, 72, 76
64, 74, 78, 75
71, 80, 84, 79
69, 71, 69, 70
75, 73, 70, 73
77, 75, 81, 70
57, 59, 75, 73
67, 58, 65, 77
75, 70, 68, 73
70, 74, 71, 70
77, 73, 80, 86
87, 78, 69, 68
67, 70, 72, 74
80, 66, 64, 74
77, 76, 74, 75
75, 69, 72, 69
83, 65, 68, 80
66, 69, 75, 74
75, 70, 65, 74
81, 77, 78, 87
69, 72, 85, 82
88, 76, 72, 76
73, 75, 71, 73
72, 69, 86, 77
67, 77, 89, 78
75, 70, 65, 66
71, 71, 77, 73
72, 73, 72, 66
78, 77, 74, 77
76, 73, 65, 66
71, 70, 76, 68
72, 70, 80, 83
67, 72, 79, 70
58, 64, 71, 71
70, 63, 64, 76
62, 59, 60, 67
78, 71, 56, 70
67, 59, 69, 70
72, 71, 66, 66
62, 54, 49, 51
59, 58, 60, 68
60, 64, 60, 67
58, 62, 63, 61
60, 52, 45, 46
48, 50, 59, 67
54, 52, 48, 51
57, 56, 56, 53
55, 52, 57, 52
50, 48, 55, 54
47, 45, 42, 48
50, 53, 55, 57
46, 51, 57, 50
54, 43, 37, 37
36, 35, 42, 50
49, 47, 47, 45
48, 43, 39, 40
36, 42, 38, 41
41, 45, 44, 44
41, 42, 42, 40
44, 41, 43, 40
32, 36, 37, 36
31, 33, 31, 41
30, 29, 25, 25
35, 36, 31, 27
28, 34, 32, 29
35, 36, 34, 33
26, 28, 24, 25
30, 30, 25, 27
36, 35, 36, 36
30, 27, 30, 26
32, 32, 29, 21
24, 33, 33, 29
27, 28, 30, 25
28, 33, 33, 29
29, 31, 29, 29
21, 27, 25, 22
25, 23, 22, 27
26, 22, 20, 20
22, 23, 23, 22
17, 13, 18, 26
32, 24, 25, 23
25, 24, 20, 21
23, 21, 21, 19
16, 16, 24, 27
19, 18, 22, 21
22, 21, 20, 19
22, 22, 17, 20
16, 16, 18, 24
17, 16, 18, 23
21, 15, 17, 22
15, 15, 18, 18
24, 22, 25, 22
21, 20, 18, 18
22, 18, 14, 16
17, 19, 17, 15
18, 19, 20, 20
17, 20, 14, 14
16, 19, 20, 14
19, 18, 18, 16
22, 17, 13, 17
18, 23, 23, 17
19, 21, 16, 18
15, 15, 16, 20
18, 15, 12, 14
12, 14, 14, 13
19, 14, 12, 15
16, 18, 16, 19
14, 12, 13, 17
12, 21, 27, 20
18, 17, 21, 18
19, 15, 18, 16
17, 15, 13, 12
23, 19, 16, 17
18, 13, 15, 19
14, 16, 17, 17
16, 20, 22, 18
18, 15, 15, 16
13, 15, 19, 17
16, 13, 19, 18
16, 15, 14, 17
16, 18, 18, 13
15, 16, 13, 17
14, 18, 19, 17
16, 14, 18, 18
20, 19, 19, 18
14, 15, 17, 13
14, 14, 18, 16
18, 15, 13, 13
17, 13, 9, 13
18, 12, 11, 16
13, 12, 14, 17
12, 12, 11, 13
13, 18, 17, 14
15, 18, 17, 16
14, 11, 11, 11
11, 16, 9, 13
10, 11, 11, 15
18, 18, 16, 14
18, 14, 15, 17
18, 12, 18, 15
19, 23, 16, 10
13, 16, 17, 17
14, 17, 14, 11
10, 11, 8, 12
17, 14, 18, 12
18, 10, 15, 14
9, 9, 16, 13
15, 14, 12, 14
13, 20, 18, 11
17, 11, 12, 15
16, 11, 12, 11
19, 10, 13, 11
14, 11, 14, 18
11, 11, 13, 19
11, 19, 12, 14
11, 13, 16, 22
9, 9, 13, 12
15, 15, 14, 13
8, 16, 13, 15
11, 16, 10, 10
9, 18, 14, 20
26, 15, 16, 17
14, 15, 16, 16
18, 9, 12, 17
11, 11, 17, 8
14, 13, 11, 13
17, 17, 9, 11
23, 11, 14, 17
19, 16, 12, 17
14, 13, 19, 11
15, 9, 10, 13
14, 18, 15, 13
15, 12, 17, 17
7, 16, 15, 15
15, 9, 16, 10
11, 16, 13, 16
10, 13, 22, 9
15, 13, 14, 13
12, 12, 18, 15
14, 16, 19, 18
9, 14, 17, 14
15, 13, 13, 18
13, 14, 16, 11
19, 19, 12, 19
19, 14, 8, 15
14, 11, 12, 14
18, 16, 14, 16
17, 15, 13, 8
11, 11, 10, 14
11, 12, 15, 8
17, 15, 13, 15
15, 16, 14, 19
20, 18, 18, 17
13, 13, 12, 16
14, 14, 12, 9
17, 18, 15, 17
12, 16, 20, 14
17, 19, 13, 11
12, 13, 13, 12
20, 16, 12, 15
13, 13, 12, 13
16, 13, 8, 11
15, 9, 12, 13
13, 11, 14, 14
13, 17, 19, 13
9, 10, 13, 14
13, 15, 16, 17
13, 10, 10, 16
16, 19, 16, 16
12, 15, 13, 12
19, 20, 13, 11
16, 12, 16, 15
13, 13, 14, 15
16, 20, 17, 21
15, 17, 17, 16
17, 16, 12, 16
15, 16, 14, 15
12, 12, 11, 17
11, 13, 11, 11
15, 14, 15, 14
12, 10, 17, 18
14, 10, 11, 13
13, 14, 15, 16
20, 19, 15, 13
9, 14, 16, 17
13, 14, 15, 14
13, 14, 19, 24
18, 14, 19, 12
17, 14, 17, 12
16, 19, 14, 12
13, 16, 13, 9
14, 19, 15, 14
19, 16, 11, 15
16, 17, 14, 13
23, 11, 15, 18
15, 10, 17, 14
22, 15, 14, 18
18, 17, 19, 19
18, 10, 13, 15
17, 19, 16, 16
16, 15, 16, 12
17, 17, 15, 19
14, 13, 16, 16
17, 21, 23, 10
21, 17, 17, 20
13, 15, 19, 18
22, 19, 12, 13
20, 19, 12, 18
24, 17, 16, 11
26, 23, 25, 18
17, 17, 21, 14
16, 17, 20, 19
21, 15, 17, 26
15, 14, 21, 21
20, 24, 19, 21
16, 17, 23, 23
24, 14, 26, 25
28, 21, 25, 14
19, 27, 27, 21
22, 18, 24, 20
20, 12, 14, 17
17, 22, 39, 25
24, 22, 23, 25
28, 18, 25, 30
37, 23, 29, 21
38, 25, 19, 26
23, 20, 28, 23
23, 27, 26, 32
26, 29, 27, 36
27, 33, 28, 32
35, 38, 37, 35
41, 44, 26, 33
34, 37, 31, 31
27, 38, 32, 36
36, 38, 35, 37
26, 33, 45, 36
32, 37, 44, 37
47, 37, 31, 41
31, 24, 40, 43
36, 35, 37, 44
26, 41, 39, 37
31, 36, 35, 41
44, 39, 44, 39
39, 42, 42, 40
42, 34, 44, 38
49, 41, 41, 33
45, 34, 41, 39
37, 40, 45, 42
54, 35, 50, 39
47, 41, 40, 33
55, 63, 37, 43
36, 43, 47, 38
36, 55, 47, 47
42, 49, 43, 40
49, 53, 46, 59
49, 61, 46, 50
50, 51, 53, 46
55, 52, 45, 49
54, 41, 47, 52
48, 60, 46, 42
57, 39, 50, 63
47, 37, 42, 46
45, 52, 68, 53
59, 53, 54, 43
50, 39, 52, 41
47, 41, 48, 52
56, 47, 60, 52
49, 42, 48, 50
50, 57, 51, 45
51, 53, 51, 48
46, 49, 52, 53
52, 47, 41, 59
54, 53, 49, 42
46, 44, 44, 40
44, 45, 45, 51
41, 51, 48, 49
44, 45, 53, 43
49, 45, 49, 43
46, 45, 37, 47
40, 43, 36, 41
43, 49, 37, 44
46, 43, 35, 43
46, 47, 43, 38
39, 38, 37, 38
47, 43, 48, 44
36, 43, 46, 38
40, 35, 37, 48
40, 42, 39, 35
33, 34, 39, 40
36, 36, 44, 42
35, 35, 35, 33
36, 38, 38, 37
31, 38, 38, 38
38, 35, 28, 29
36, 41, 36, 34
34, 35, 35, 28
26, 25, 26, 32
31, 34, 30, 28
29, 35, 35, 33
33, 35, 33, 35
30, 31, 25, 25
35, 29, 30, 30
25, 22, 20, 28
27, 33, 35, 32
22, 29, 22, 24
21, 25, 31, 23
28, 30, 34, 28
24, 27, 27, 35
22, 24, 24, 29
30, 27, 20, 25
28, 29, 32, 33
22, 20, 16, 24
26, 25, 26, 23
24, 25, 30, 21
21, 23, 19, 20
22, 21, 29, 25
16, 26, 22, 18
18, 21, 22, 12
23, 24, 22, 21
32, 17, 25, 16
22, 26, 22, 22
20, 15, 15, 19
23, 21, 20, 21
17, 21, 23, 19
18, 20, 17, 23
16, 22, 16, 16
21, 22, 22, 25
18, 19, 15, 14
23, 15, 16, 24
20, 12, 21, 21
19, 13, 21, 25
17, 23, 18, 14
18, 18, 17, 19
20, 15, 19, 21
25, 20, 19, 14
15, 19, 18, 25
19, 17, 16, 16
15, 18, 14, 16
22, 18, 18, 20
16, 13, 17, 22
13, 19, 22, 18
22, 22, 17, 12
17, 17, 18, 23
21, 17, 16, 21
16, 16, 21, 16
20, 26, 20, 13
18, 14, 16, 19
27, 23, 19, 19
15, 13, 14, 17
15, 16, 19, 15
12, 13, 13, 16
11, 15, 18, 17
15, 19, 20, 21
17, 20, 16, 18
17, 14, 13, 18
19, 20, 20, 24
19, 25, 18, 15
18, 20, 25, 20
19, 20, 22, 16
22, 16, 16, 14
17, 14, 21, 24
21, 23, 20, 15
17, 18, 19, 18
15, 14, 19, 18
23, 21, 12, 18
15, 19, 20, 18
16, 19, 17, 14
14, 20, 23, 20
18, 17, 16, 18
23, 21, 16, 17
17, 15, 20, 18
19, 20, 18, 19
21, 14, 16, 16
18, 13, 15, 15
13, 20, 18, 18
18, 17, 23, 21
21, 21, 20, 13
19, 15, 19, 18
16, 18, 18, 14
22, 18, 21, 23
28, 27, 20, 26
24, 18, 20, 22
15, 16, 23, 19
31, 29, 23, 24
24, 26, 24, 24
24, 20, 19, 25
16, 21, 22, 23
20, 21, 22, 16
27, 26, 22, 16
24, 22, 22, 23
18, 22, 18, 26
22, 18, 15, 23
25, 34, 22, 20
25, 21, 22, 21
25, 25, 28, 28
32, 29, 26, 29
31, 29, 30, 34
27, 34, 30, 31
32, 26, 27, 26
30, 36, 35, 28
33, 25, 29, 31
31, 32, 32, 32
34, 29, 28, 25
29, 26, 33, 37
34, 35, 35, 30
34, 33, 34, 36
34, 37, 30, 31
28, 30, 41, 33
45, 44, 38, 31
35, 41, 31, 39
46, 28, 33, 34
42, 43, 40, 38
35, 41, 44, 37
41, 42, 38, 40
40, 40, 38, 33
40, 37, 38, 40
40, 44, 54, 39
42, 47, 46, 47
47, 50, 51, 43
47, 43, 40, 52
50, 52, 48, 50
52, 54, 35, 35
45, 40, 48, 51
44, 48, 49, 48
62, 56, 51, 52
46, 46, 49, 59
48, 57, 65, 55
53, 48, 57, 57
58, 55, 56, 56
59, 55, 52, 50
55, 56, 57, 43
54, 58, 55, 62
58, 55, 57, 50
54, 50, 50, 47
64, 62, 56, 62
54, 51, 54, 57
61, 51, 59, 62
54, 57, 60, 62
55, 58, 60, 67
61, 64, 61, 59
63, 66, 55, 51
66, 68, 58, 55
58, 59, 68, 65
65, 59, 60, 54
58, 61, 66, 54
58, 58, 69, 67
63, 62, 61, 71
55, 61, 61, 64
68, 62, 65, 57
66, 60, 58, 64
62, 54, 61, 54
56, 55, 53, 46
55, 57, 58, 58
69, 62, 53, 47
51, 61, 64, 62
57, 60, 52, 58
60, 59, 50, 45
51, 55, 54, 53
64, 61, 56, 57
55, 59, 60, 54
59, 60, 57, 49
55, 48, 48, 48
53, 50, 51, 54
54, 52, 46, 49
47, 51, 49, 42
43, 45, 43, 38
49, 43, 46, 42
40, 47, 50, 52
53, 54, 47, 43
48, 39, 41, 49
50, 45, 50, 52
41, 36, 38, 44
46, 41, 40, 41
40, 40, 55, 50
40, 40, 48, 44
37, 36, 37, 52
46, 57, 47, 48
35, 40, 41, 46
36, 42, 50, 37
40, 41, 50, 46
39, 41, 49, 50
38, 38, 45, 33
38, 44, 36, 38
46, 38, 44, 43
43, 42, 41, 31
38, 30, 36, 31
33, 34, 47, 42
39, 41, 33, 36
34, 31, 38, 33
41, 37, 49, 47
34, 42, 34, 46
33, 37, 35, 31
44, 37, 30, 32
41, 27, 42, 32
25, 28, 32, 46
35, 36, 39, 34
39, 29, 34, 28
30, 36, 18, 34
33, 31, 37, 31
25, 45, 23, 42
38, 33, 30, 38
23, 29, 25, 28
30, 30, 35, 30
36, 26, 32, 37
27, 25, 27, 37
28, 29, 28, 30
22, 32, 30, 26
25, 30, 30, 30
31, 21, 30, 29
28, 32, 32, 30
24, 22, 26, 32
25, 27, 21, 24
28, 29, 28, 28
27, 24, 28, 23
24, 26, 30, 22
29, 24, 27, 23
20, 24, 34, 28
24, 23, 24, 22
18, 21, 24, 19
19, 19, 22, 34
28, 28, 30, 29
19
*END

*EOF